Folder: my_pyoptmat/scripts/data/ebsd/new_tensile

Note: README.md
# MyOptMat (My PyOptMat)
The code in the repository serves as an unofficial wrapper for the PyOptMat package, developed by the great people at Argonne National Laboratory. PyOptMat is a package that provides a framework for using machine-learning techniques to calibrate deterministic and statistical models against experimental data. Visit their [repository](https://github.com/Argonne-National-Laboratory/pyoptmat) and [documentation](https://pyoptmat.readthedocs.io/en/stable/) for more information.

File: output_result1_ccsurve.csv
# strain, stress, energy_density, plastic_work
0.000000000000000000e+00,0.000000000000000000e+00,0.000000000000000000e+00,0.000000000000000000e+00
0.001,7.91577,0.00395788,0.00378549
0.002,8.53097,0.00426548,0.00409193
0.003,8.82608,0.00441304,0.00423923
0.004,9.10099,0.0045505,0.00437647
0.005,9.37014,0.00468507,0.00451084
0.006,9.63435,0.00481717,0.00464274
0.007,9.89374,0.00494687,0.00477224
0.008,10.1484,0.0050742,0.00489939
0.009,10.3984,0.00519922,0.00502423
0.01,10.6439,0.00532196,0.0051468
0.011,10.8849,0.00544247,0.00526714
0.012,11.1216,0.00556078,0.0053853
0.013,11.3539,0.00567695,0.0055013
0.014,11.582,0.00579099,0.0056152
0.015,11.8059,0.00590297,0.00572703
0.016,12.0258,0.0060129,0.00583683
0.017,12.2417,0.00612084,0.00594463
0.018,12.4536,0.00622681,0.00605048
0.019,12.6617,0.00633085,0.0061544
0.02,12.866,0.00643301,0.00625644
0.021,13.0666,0.0065333,0.00635662
0.022,13.2635,0.00663177,0.00645498
0.023,13.4569,0.00672846,0.00655155
0.024,13.6468,0.00682338,0.00664638
0.025,13.8332,0.00691658,0.00673948
0.026,14.0162,0.00700808,0.00683089
0.027,14.1958,0.00709792,0.00692064
0.028,14.3723,0.00718613,0.00700876
0.029,14.5455,0.00727274,0.00709528
0.03,14.7155,0.00735778,0.00718023
0.031,14.8825,0.00744126,0.00726364
0.032,15.0465,0.00752324,0.00734554
0.033,15.2074,0.00760372,0.00742595
0.034,15.3655,0.00768274,0.00750491
0.035,15.5207,0.00776033,0.00758243
0.036,15.673,0.00783651,0.00765854
0.037,15.8226,0.00791131,0.00773328
0.038,15.9922,0.0079961,0.00781659
0.039,16.1399,0.00806997,0.00789039
0.04,16.2821,0.00814108,0.00796143
0.041,16.4215,0.00821074,0.00803105
0.042,16.5583,0.00827913,0.00809938
0.043,16.6926,0.00834628,0.00816648
0.044,16.8244,0.00841221,0.00823237
0.045,16.9539,0.00847695,0.00829706
0.046,17.0882,0.00854412,0.00836333
0.047,17.2146,0.00860732,0.00842649
0.048,17.3375,0.00866875,0.00848788
0.049,17.458,0.008729,0.00854808
0.05,17.5763,0.00878814,0.00860718
0.051,17.6924,0.00884621,0.00866521
0.052,17.8064,0.00890322,0.0087222
0.053,17.915,0.00895749,0.00877637
0.054,18.0246,0.00901232,0.00883116
0.055,18.1325,0.00906627,0.00888508
0.056,18.2385,0.00911927,0.00893804
0.057,18.3426,0.0091713,0.00899005
0.058,18.4448,0.00922239,0.00904111
0.059,18.5543,0.00927716,0.00909504
0.06,18.6546,0.00932728,0.00914513
0.061,18.7516,0.00937578,0.0091936
0.062,18.8466,0.00942331,0.00924111
0.063,18.9399,0.00946997,0.00928775
0.064,19.0316,0.00951579,0.00933355
0.065,19.1216,0.00956078,0.00937851
0.066,19.2099,0.00960496,0.00942267
0.067,19.2967,0.00964834,0.00946603
0.068,19.3819,0.00969093,0.0095086
0.069,19.4655,0.00973275,0.0095504
0.07,19.5476,0.00977382,0.00959145
0.071,19.6283,0.00981415,0.00963176
0.072,19.7075,0.00985375,0.00967134
0.073,19.7853,0.00989263,0.00971021
0.074,19.8616,0.00993081,0.00974837
0.075,19.9366,0.0099683,0.00978585
0.076,20.0102,0.0100051,0.00982265
0.077,20.0825,0.0100413,0.00985878
0.078,20.1535,0.0100768,0.00989426
0.079,20.2232,0.0101116,0.00992911
0.08,20.2917,0.0101458,0.00996332
0.081,20.3483,0.0101742,0.00999042
0.082,20.4143,0.0102072,0.0100234
0.083,20.4791,0.0102396,0.0100558
0.084,20.5427,0.0102714,0.0100876
0.085,20.6052,0.0103026,0.0101188
0.086,20.6665,0.0103333,0.0101494
0.087,20.7267,0.0103634,0.0101795
0.088,20.7858,0.0103929,0.0102091
0.089,20.8439,0.010422,0.0102381
0.09,20.9009,0.0104505,0.0102666
0.091,20.9569,0.0104785,0.0102946
0.092,21.0119,0.010506,0.0103221
0.093,21.0659,0.010533,0.0103491
0.094,21.119,0.0105595,0.0103756
0.095,21.171,0.0105855,0.0104016
0.096,21.2222,0.0106111,0.0104272
0.097,21.2724,0.0106362,0.0104523
0.098,21.3217,0.0106609,0.0104769
0.099,21.3701,0.0106851,0.0105012
0.1,21.4177,0.0107089,0.0105249